File: Data from lab/Part1_Group1_20230927.csv
Reference_SiO2,,Sample_A,,Sample_B,,Sample_C,,Sample_D,,Sample_E,,Sample_F,,Sample_G,,Sample_G_flipped,,
Wavelength (nm),Abs,Wavelength (nm),Abs,Wavelength (nm),Abs,Wavelength (nm),Abs,Wavelength (nm),Abs,Wavelength (nm),Abs,Wavelength (nm),Abs,Wavelength (nm),Abs,Wavelength (nm),Abs,
1100.01,-0.00434131,1100.01,0.0227445,1100.01,0.035789,1100.01,0.0206498,1100.01,0.00443365,1100.01,0.0175599,1100.01,0.0150126,1100.01,0.0139259,1100.01,0.00276382,
1096.99,-0.010299,1096.99,0.008979626,1096.99,0.0122629,1096.99,0.0190191,1096.99,0.0104434,1096.99,0.0294022,1096.99,0.0047277,1096.99,-0.00390228,1096.99,-0.00492443,
1094.01,0.00575254,1094.01,0.0140041,1094.01,0.0299373,1094.01,0.0181066,1094.01,0.00524975,1094.01,0.0375255,1094.01,0.01717,1094.01,0.00093824,1094.01,0.00660476,
1091,-0.00457283,1091,0.00546095,1091,0.0322155,1091,0.00278625,1091,0.0010456,1091,0.0215182,1091,0.0174629,1091,0.00758845,1091,0.0049665,
1088.01,-0.00889932,1088.01,-0.0106922,1088.01,0.0184226,1088.01,-0.00668485,1088.01,-0.0104049,1088.01,0.0201277,1088.01,-0.00384681,1088.01,-0.00652699,1088.01,-0.00966232,
1084.99,-0.00901292,1084.99,-0.0152187,1084.99,0.0105404,1084.99,0.000590265,1084.99,-0.00915316,1084.99,0.010605,1084.99,0.00215431,1084.99,0.00354241,1084.99,-0.0131704,
1081.99,0.0042917,1081.99,0.008109,1081.99,0.0296996,1081.99,0.00409933,1081.99,-0.000634674,1081.99,0.0256938,1081.99,0.0108087,1081.99,-0.00283024,1081.99,-0.00158562,
1079.01,0.00415695,1079.01,-0.00246788,1079.01,0.0248448,1079.01,0.00476897,1079.01,-0.000323402,1079.01,0.0232174,1079.01,0.0113106,1079.01,0.000608462,1079.01,0.00502519,
1075.99,-0.000118386,1075.99,-0.00330848,1075.99,0.0240504,1075.99,0.00840111,1075.99,-0.00356202,1075.99,0.0204059,1075.99,0.00464443,1075.99,0.00949356,1075.99,0.00457754,
1073,0.00426592,1073,0.00572351,1073,0.0394041,1073,0.0131013,1073,0.013867,1073,0.0150456,1073,0.0139161,1073,0.000695102,1073,-0.000900777,
1070,-0.00780901,1070,-0.00639554,1070,0.0324085,1070,-0.00474462,1070,-0.00716921,1070,0.0168865,1070,0.00796515,1070,-0.00866914,1070,-0.00114002,
1067,0.00694602,1067,0.00184401,1067,0.0352194,1067,0.00344468,1067,0.00501827,1067,0.0267032,1067,0.014273,1067,0.0102843,1067,0.00769534,
1063.99,0.00278836,1063.99,0.00165693,1063.99,0.0360537,1063.99,0.000743512,1063.99,0.00466411,1063.99,0.025475,1063.99,0.00886196,1063.99,0.00977146,1063.99,0.00720253,
1061,0.00368748,1061,0.00222638,1061,0.0251253,1061,0.00329324,1061,-0.00282021,1061,0.0150513,1061,0.0101847,1061,-0.000999032,1061,0.00286827,
1058.01,-0.000434667,1058.01,0.00466301,1058.01,0.0363128,1058.01,0.0108039,1058.01,0.00395566,1058.01,0.031538,1058.01,0.00952798,1058.01,0.00319046,1058.01,0.00864155,
1055.01,-0.00524127,1055.01,-0.00263886,1055.01,0.0248126,1055.01,0.000405693,1055.01,-0.00663631,1055.01,0.0188219,1055.01,0.00769299,1055.01,-0.000548126,1055.01,0.00192684,
1052,0.000639206,1052,0.00132118,1052,0.0290034,1052,0.00907615,1052,0.00303291,1052,0.0190518,1052,0.00598118,1052,0.0019102,1052,0.001796,
1048.99,0.00321617,1048.99,0.00527362,1048.99,0.0356795,1048.99,0.00802669,1048.99,0.00202758,1048.99,0.0255913,1048.99,0.0187329,1048.99,0.00540452,1048.99,0.00599034,
1046,-0.00234339,1046,0.00392757,1046,0.0277087,1046,0.0067419,1046,0.00374158,1046,0.0244834,1046,0.0167239,1046,0.00484951,1046,0.00516392,
1043.01,-0.00489233,1043.01,-0.0054583,1043.01,0.026502,1043.01,0.00464292,1043.01,-0.00458712,1043.01,0.0174287,1043.01,0.00816014,1043.01,-0.00776202,1043.01,0.000510279,
1040.01,0.00175574,1040.01,-0.000448993,1040.01,0.0310721,1040.01,0.00351824,1040.01,-0.00130203,1040.01,0.0280666,1040.01,0.00961963,1040.01,0.00252835,1040.01,0.00384245,
1037,0.00109517,1037,0.00274202,1037,0.0299405,1037,0.00415528,1037,-0.00119465,1037,0.0238207,1037,0.0114093,1037,2.50842e-05,1037,0.0014976,
1033.99,0.00201573,1033.99,-0.00146768,1033.99,0.0277119,1033.99,0.00320173,1033.99,0.0037298,1033.99,0.0290797,1033.99,0.0112965,1033.99,-0.000270062,1033.99,0.00127162,
1031,-0.00277417,1031,0.00342248,1031,0.0295792,1031,0.00603483,1031,-0.000908992,1031,0.0264431,1031,0.011432,1031,0.000512612,1031,0.00368602,
1028.01,0.000216746,1028.01,-0.00189877,1028.01,0.0307479,1028.01,0.00411352,1028.01,0.00058972,1028.01,0.0248949,1028.01,0.0147919,1028.01,0.00103618,1028.01,0.00137312,
1025.01,0.00252411,1025.01,0.00299503,1025.01,0.0306062,1025.01,0.00586512,1025.01,0.00196632,1025.01,0.027926,1025.01,0.0150568,1025.01,0.00295789,1025.01,0.00289873,
1022.01,0.000720149,1022.01,0.00331351,1022.01,0.0287432,1022.01,0.00391182,1022.01,0.000358695,1022.01,0.0272644,1022.01,0.0139456,1022.01,0.00029805,1022.01,0.00468996,
1019,-0.00108864,1019,0.00123265,1019,0.027269,1019,0.00535205,1019,-0.00217878,1019,0.0253372,1019,0.0137064,1019,0.000854067,1019,0.00239072,
1016.01,-0.00280622,1016.01,-0.000162533,1016.01,0.02697,1016.01,0.00330983,1016.01,-0.00277042,1016.01,0.0280827,1016.01,0.0121089,1016.01,-0.0019279,1016.01,0.000551022,
1012.99,-0.000607739,1012.99,0.00207,1012.99,0.02841,1012.99,0.00368733,1012.99,-0.000252263,1012.99,0.0292347,1012.99,0.01432,1012.99,0.000348306,1012.99,0.00176445,
1010,9.04291e-05,1010,0.00197825,1010,0.0312689,1010,0.00526099,1010,0.00183419,1010,0.0290474,1010,0.0162831,1010,0.00189195,1010,0.00358845,
1006.99,0.0014464,1006.99,0.00247233,1006.99,0.0290208,1006.99,0.00502233,1006.99,-0.000876339,1006.99,0.0324117,1006.99,0.0160799,1006.99,0.0011765,1006.99,0.00387782,
1003.99,0.000344783,1003.99,0.00300168,1003.99,0.0293463,1003.99,0.00537422,1003.99,0.000115544,1003.99,0.0313293,1003.99,0.0155628,1003.99,0.00126918,1003.99,0.00235123,
1001,0.00116968,1001,0.0033884,1001,0.0306548,1001,0.00654684,1001,0.0011186,1001,0.0313501,1001,0.0160114,1001,0.00283573,1001,0.00282955,
997.986,-0.000140021,997.986,0.000241013,997.986,0.0286465,997.986,0.00444623,997.986,-0.00226418,997.986,0.0325854,997.986,0.0154657,997.986,0.000329161,997.986,0.00229525,
994.994,-0.000723428,994.994,0.00230382,994.994,0.0282906,994.994,0.00441312,994.994,-0.00025604,994.994,0.0337655,994.994,0.0162228,994.994,0.00100307,994.994,0.0019139,
991.996,-0.000270528,991.996,0.00230863,991.996,0.0298314,991.996,0.0050178,991.996,0.000436165,991.996,0.0352714,991.996,0.0175624,991.996,0.00182363,991.996,0.00297739,
988.993,0.00032613,988.993,0.00343912,988.993,0.0302098,988.993,0.00552001,988.993,0.00118733,988.993,0.0362569,988.993,0.0191509,988.993,0.00200329,988.993,0.00356704,
986.016,-0.000621078,986.016,0.0027366,986.016,0.0264196,986.016,0.00393708,986.016,-0.000444959,986.016,0.0369568,986.016,0.0171624,986.016,0.00100793,986.016,0.00206956,
983.002,-0.000433632,983.002,0.00234936,983.002,0.0272272,983.002,0.00546643,983.002,-0.000557381,983.002,0.0361832,983.002,0.0170586,983.002,0.000762078,983.002,0.00105076,
980.014,-0.000362149,980.014,0.00175223,980.014,0.0263029,980.014,0.00454206,980.014,-0.00154172,980.014,0.0353612,980.014,0.0174658,980.014,0.000424349,980.014,-0.000154874,
976.99,-0.00053008,976.99,0.00126965,976.99,0.0279826,976.99,0.00504383,976.99,-0.00125681,976.99,0.0385003,976.99,0.0186147,976.99,0.000808187,976.99,0.00291841,
973.992,-0.000412323,973.992,0.00075295,973.992,0.0278156,973.992,0.00542698,973.992,-0.000833453,973.992,0.040573,973.992,0.0191933,973.992,0.000979438,973.992,0.001888,
970.989,-0.00109386,970.989,0.000816771,970.989,0.0276153,970.989,0.00635137,970.989,-0.00126001,970.989,0.0402758,970.989,0.01986,970.989,0.000794079,970.989,0.00130654,
968.012,0.000487162,968.012,0.00281504,968.012,0.0279747,968.012,0.00635452,968.012,0.000802922,968.012,0.0432982,968.012,0.0217277,968.012,0.00169326,968.012,0.00341001,
964.999,-0.000417961,964.999,0.00222557,964.999,0.0263954,964.999,0.00629361,964.999,-0.000345389,964.999,0.0439025,964.999,0.0216079,964.999,0.00136613,964.999,0.00223109,
962.013,0.000658883,962.013,0.00235909,962.013,0.0276146,962.013,0.00658292,962.013,0.000752406,962.013,0.0454365,962.013,0.0222176,962.013,0.00247292,962.013,0.00288959,
958.989,0.000675268,958.989,0.00252059,958.989,0.0279196,958.989,0.00662642,958.989,-0.000414806,958.989,0.0468258,958.989,0.022749,958.989,0.00152194,958.989,0.00319117,
955.992,-0.000870397,955.992,0.00148861,955.992,0.0271344,955.992,0.00583625,955.992,-0.00059104,955.992,0.0485818,955.992,0.0232193,955.992,0.00143292,955.992,0.00252044,
952.991,-0.000839033,952.991,0.00268953,952.991,0.0275229,952.991,0.00644951,952.991,0.000365845,952.991,0.0500636,952.991,0.0242093,952.991,0.00225065,952.991,0.00214887,
949.985,-0.000207763,949.985,0.00268575,949.985,0.0271945,949.985,0.00622039,949.985,-0.000441545,949.985,0.0515622,949.985,0.0251967,949.985,0.00134458,949.985,0.00245754,
947.006,-0.000435339,947.006,0.00291348,947.006,0.0263803,947.006,0.00606082,947.006,-0.000519893,947.006,0.0528275,947.006,0.0258105,947.006,0.00159502,947.006,0.0031029,
943.99,0.000434273,943.99,0.00249263,943.99,0.0265641,943.99,0.00689481,943.99,0.000207655,943.99,0.0548362,943.99,0.0270678,943.99,0.00154612,943.99,0.00232588,
941.001,-0.000498123,941.001,0.0026359,941.001,0.0259168,941.001,0.00727965,941.001,-0.000504328,941.001,0.0564339,941.001,0.0277355,941.001,0.00162258,941.001,0.00299827,
938.007,-1.36158e-05,938.007,0.00368884,938.007,0.026929,938.007,0.0079008,938.007,0.000612376,938.007,0.0591506,938.007,0.0290172,938.007,0.00246998,938.007,0.00246527,
935.009,0.000223246,935.009,0.00337377,935.009,0.0266771,935.009,0.00844721,935.009,0.000484338,935.009,0.0614425,935.009,0.0303124,935.009,0.00235537,935.009,0.00314113,
932.006,0.000693158,932.006,0.00317513,932.006,0.026724,932.006,0.00758537,932.006,0.00082826,932.006,0.062363,932.006,0.0312011,932.006,0.00238608,932.006,0.00280652,
928.998,-0.000191824,928.998,0.00268286,928.998,0.025831,928.998,0.00825906,928.998,2.40228e-05,928.998,0.065705,928.998,0.0313962,928.998,0.00212437,928.998,0.00234785,
925.986,-0.000359459,925.986,0.00361118,925.986,0.0258396,925.986,0.00808988,925.986,0.000301858,925.986,0.0674274,925.986,0.0322582,925.986,0.0016726,925.986,0.00240433,
923.001,-0.000127599,923.001,0.00267335,923.001,0.0256215,923.001,0.00814112,923.001,0.000382556,923.001,0.069916,923.001,0.0342641,923.001,0.00123566,923.001,0.00266187,
920.013,-0.00030245,920.013,0.00289699,920.013,0.0254304,920.013,0.00892424,920.013,0.000314473,920.013,0.0729732,920.013,0.0351124,920.013,0.00197511,920.013,0.00270471,
916.986,8.20922e-05,916.986,0.00355509,916.986,0.0245232,916.986,0.00774704,916.986,0.000212446,916.986,0.0748238,916.986,0.0364553,916.986,0.00178485,916.986,0.00363788,
913.988,0.000448473,913.988,0.00378636,913.988,0.0251081,913.988,0.00964188,913.988,0.00121573,913.988,0.0795903,913.988,0.0379079,913.988,0.00331805,913.988,0.00353236,
910.985,0.000526244,910.985,0.00345796,910.985,0.0252066,910.985,0.0100543,910.985,0.00110077,910.985,0.0818864,910.985,0.0393548,910.985,0.00286632,910.985,0.00346253,
908.011,-0.00040984,908.011,0.00303687,908.011,0.0248408,908.011,0.00971721,908.011,0.000603044,908.011,0.085312,908.011,0.0408017,908.011,0.00184807,908.011,0.00226153,
904.999,0.000351622,904.999,0.00292993,904.999,0.0251544,904.999,0.0107191,904.999,0.00105572,904.999,0.0893641,904.999,0.0426965,904.999,0.00265856,904.999,0.00305804,
902.016,0.000523082,902.016,0.00322475,902.016,0.0252436,902.016,0.00998376,902.016,8.78918e-05,902.016,0.0920968,902.016,0.0443485,902.016,0.00234582,902.016,0.00304865,
898.995,0.000133903,898.995,0.00344993,898.995,0.0246221,898.995,0.0102691,898.995,0.000741722,898.995,0.0959616,898.995,0.0455796,898.995,0.00227948,898.995,0.00285123,
896.003,7.08816e-05,896.003,0.00478546,896.003,0.0248504,896.003,0.0109523,896.003,0.00149245,896.003,0.100847,896.003,0.0481832,896.003,0.00270331,896.003,0.00325342,
893.007,0.000158995,893.007,0.00393515,893.007,0.0245182,893.007,0.010734,893.007,0.00115849,893.007,0.105011,893.007,0.0497302,893.007,0.00222076,893.007,0.00317745,
890.006,-0.00117534,890.006,0.00314392,890.006,0.0233153,890.006,0.0107094,890.006,-0.000147059,890.006,0.109143,890.006,0.0512503,890.006,0.00191228,890.006,0.00288735,
887.001,-5.22893e-06,887.001,0.00387685,887.001,0.0243879,887.001,0.0115203,887.001,0.00121188,887.001,0.114624,887.001,0.0536266,887.001,0.00254437,887.001,0.00338407,
883.992,-0.00036546,883.992,0.00391493,883.992,0.0243061,883.992,0.0120599,883.992,0.00102443,883.992,0.120113,883.992,0.0563175,883.992,0.00260017,883.992,0.00330469,
881.012,-3.57729e-05,881.012,0.00423552,881.012,0.0239702,881.012,0.0117894,881.012,0.000842291,881.012,0.125118,881.012,0.0583517,881.012,0.00231966,881.012,0.00290572,
877.994,0.000534719,877.994,0.0046874,877.994,0.0243805,877.994,0.0127999,877.994,0.00101428,877.994,0.131926,877.994,0.0614057,877.994,0.00292469,877.994,0.00335553,
875.005,0.000978737,875.005,0.00467097,875.005,0.0241805,875.005,0.0137486,875.005,0.00135146,875.005,0.137515,875.005,0.0644353,875.005,0.00332637,875.005,0.00399704,
872.013,0.000639855,872.013,0.00479218,872.013,0.0243258,872.013,0.0134542,872.013,0.00196489,872.013,0.144118,872.013,0.0671573,872.013,0.0039031,872.013,0.00376534,
869.016,-0.000430219,869.016,0.00503959,869.016,0.0229353,869.016,0.0140665,869.016,0.000584173,869.016,0.151759,869.016,0.0690781,869.016,0.00325263,869.016,0.00362165,
866.015,-0.000197362,866.015,0.00488372,866.015,0.0232275,866.015,0.0141329,866.015,0.00114318,866.015,0.15861,866.015,0.0721833,866.015,0.00311195,866.015,0.0038569,
863.01,0.000641903,863.01,0.00502176,863.01,0.0229208,863.01,0.0142763,863.01,0.000227701,863.01,0.167578,863.01,0.0763612,863.01,0.00255666,863.01,0.00379506,
860,-0.00022577,860,0.00366454,860,0.0221408,860,0.0147101,860,0.000290719,860,0.175579,860,0.080419,860,0.00312295,860,0.00333485,
856.987,-7.72369e-05,856.987,0.0050448,856.987,0.0224156,856.987,0.0151543,856.987,0.000324421,856.987,0.184354,856.987,0.0829058,856.987,0.00334098,856.987,0.00393269,
854.003,0.000889446,854.003,0.00630091,854.003,0.024485,854.003,0.0169214,854.003,0.00178844,854.003,0.194751,854.003,0.0885596,854.003,0.00455216,854.003,0.00498468,
851.016,1.87936e-05,851.016,0.0060704,851.016,0.0231579,851.016,0.0183348,851.016,0.00131599,851.016,0.205021,851.016,0.0916457,851.016,0.00396075,851.016,0.00409361,
847.99,-0.000350303,847.99,0.00620406,847.99,0.0230544,847.99,0.017876,847.99,0.000900418,847.99,0.216103,847.99,0.0959912,847.99,0.00358244,847.99,0.00388753,
844.995,0.000718178,844.995,0.00669589,844.995,0.0237431,844.995,0.0181568,844.995,0.00143459,844.995,0.227245,844.995,0.101996,844.995,0.00454824,844.995,0.00545974,
841.995,-0.000281289,841.995,0.00558999,841.995,0.0229863,841.995,0.0184138,841.995,3.37048e-05,841.995,0.239013,841.995,0.105979,841.995,0.00345347,841.995,0.0040414,
838.992,0.000384266,838.992,0.00628746,838.992,0.0230618,838.992,0.0206077,838.992,0.000966258,838.992,0.253099,838.992,0.111914,838.992,0.00417959,838.992,0.0048661,
835.985,-8.2879e-05,835.985,0.00637577,835.985,0.0226829,835.985,0.0202093,835.985,0.000808679,835.985,0.265113,835.985,0.117385,835.985,0.00433539,835.985,0.00469485,
833.008,0.000338513,833.008,0.00658686,833.008,0.0227485,833.008,0.0213203,833.008,0.0005631,833.008,0.279099,833.008,0.123494,833.008,0.00465634,833.008,0.00548627,
829.993,2.32203e-05,829.993,0.00698406,829.993,0.0224405,829.993,0.0216553,829.993,0.000298361,829.993,0.293725,829.993,0.129792,829.993,0.00450743,829.993,0.00480692,
827.008,0.00028502,827.008,0.00714786,827.008,0.0224243,827.008,0.0228728,827.008,0.000400356,827.008,0.308174,827.008,0.135896,827.008,0.00456482,827.008,0.00512832,
823.985,-8.3352e-06,823.985,0.00815634,823.985,0.0226681,823.985,0.0249978,823.985,0.00055535,823.985,0.325065,823.985,0.14298,823.985,0.00540958,823.985,0.00583109,
820.993,-0.000402082,820.993,0.00785796,820.993,0.0218249,820.993,0.0246294,820.993,0.000722275,820.993,0.340391,820.993,0.15016,820.993,0.00494069,820.993,0.00544884,
817.997,-0.000806995,817.997,0.00735936,817.997,0.0218357,817.997,0.0257622,817.997,2.08646e-05,817.997,0.355214,817.997,0.157836,817.997,0.00456291,817.997,0.00488346,
814.998,0.000235212,814.998,0.00836632,814.998,0.0233103,814.998,0.0273237,814.998,0.00048369,814.998,0.372096,814.998,0.166914,814.998,0.005686,814.998,0.00649415,
811.994,0.000460574,811.994,0.00873126,811.994,0.02265919,811.994,0.0283966,811.994,0.000446789,811.994,0.387969,811.994,0.175566,811.994,0.00644079,811.994,0.00577854,
808.987,9.1879e-05,808.987,0.00858129,808.987,0.022242,808.987,0.0292597,808.987,0.000459486,808.987,0.403453,808.987,0.184288,808.987,0.00555517,808.987,0.00624534,
806.011,0.000287792,806.011,0.00985846,806.011,0.0220601,806.011,0.0315997,806.011,0.000127792,806.011,0.417517,806.011,0.193661,806.011,0.00645934,806.011,0.00682199,
802.997,-0.000297897,802.997,0.0102278,802.997,0.021827,802.997,0.0325222,802.997,0.000715871,802.997,0.431545,802.997,0.202943,802.997,0.00624445,802.997,0.00674889,
800.014,-0.000761363,800.014,0.00976373,800.014,0.0217316,800.014,0.0337093,800.014,-0.000135,800.014,0.442078,800.014,0.212515,800.014,0.006996,800.014,0.00582571,
796.992,-0.000209522,796.992,0.0100303,796.992,0.0218198,796.992,0.0351784,796.992,-0.000106792,796.992,0.453636,796.992,0.22332,796.992,0.00666493,796.992,0.00639791,
794.002,-9.27136e-05,794.002,0.0108651,794.002,0.0228217,794.002,0.0369699,794.002,0.000521397,794.002,0.462044,794.002,0.234324,794.002,0.00777721,794.002,0.00722413,
791.008,-0.000308555,791.008,0.0106826,791.008,0.0210564,791.008,0.0383922,791.008,-0.000714744,791.008,0.465316,791.008,0.242715,791.008,0.00712737,791.008,0.00713655,
788.01,5.66681e-05,788.01,0.0118053,788.01,0.0219073,788.01,0.0415712,788.01,0.000484363,788.01,0.470303,788.01,0.253892,788.01,0.00829415,788.01,0.0088263,
785.009,-0.00081392,785.009,0.0125908,785.009,0.0215709,785.009,0.0426297,785.009,-0.000453544,785.009,0.468985,785.009,0.264541,785.009,0.00763358,785.009,0.00754201,
782.004,0.00024337,782.004,0.0124727,782.004,0.0219694,782.004,0.0454718,782.004,-0.00065804,782.004,0.467316,782.004,0.274454,782.004,0.00857855,782.004,0.00860878,
778.997,-8.48977e-05,778.997,0.013338,778.997,0.0217167,778.997,0.0481782,778.997,-0.00026137,778.997,0.461594,778.997,0.282516,778.997,0.00878234,778.997,0.00830476,
775.985,-0.000191359,775.985,0.0133625,775.985,0.0222972,775.985,0.050278,775.985,-0.000310934,775.985,0.454689,775.985,0.291867,775.985,0.00898803,775.985,0.00917504,
773.005,-0.000117299,773.005,0.0150208,773.005,0.0221636,773.005,0.0531362,773.005,-0.000298777,773.005,0.444082,773.005,0.29985,773.005,0.0103886,773.005,0.00967039,
769.987,-0.000451631,769.987,0.0153535,769.987,0.0216545,769.987,0.0557134,769.987,-0.000489383,769.987,0.431626,769.987,0.306401,769.987,0.0101719,769.987,0.00908265,
767,-0.000175782,767,0.015659,767,0.0216011,767,0.059027,767,-0.000892924,767,0.4187,767,0.311988,767,0.010396,767,0.0101321,
764.01,-0.000109018,764.01,0.016532,764.01,0.0219419,764.01,0.0625604,764.01,-0.000911213,764.01,0.403881,764.01,0.316462,764.01,0.0109322,764.01,0.0104007,
761.017,0.000126963,761.017,0.0180019,761.017,0.0223753,761.017,0.0663401,761.017,-0.000868072,761.017,0.388914,761.017,0.319649,761.017,0.0114226,761.017,0.0106747,
757.985,-0.00054037,757.985,0.0187202,757.985,0.0222371,757.985,0.0700213,757.985,-0.000782139,757.985,0.372273,757.985,0.320311,757.985,0.0124811,757.985,0.0111676,
754.985,-0.000207504,754.985,0.019913,754.985,0.0218829,754.985,0.0745124,754.985,-0.000655714,754.985,0.356028,754.985,0.320106,754.985,0.0129161,754.985,0.0123406,
752.018,-0.000701254,752.018,0.0207632,752.018,0.0224503,752.018,0.0788288,752.018,-0.000565137,752.018,0.339797,752.018,0.319118,752.018,0.0131503,752.018,0.0128344,
749.011,0.000299941,749.011,0.021921,749.011,0.0227944,749.011,0.0836035,749.011,-0.000400737,749.011,0.322712,749.011,0.315418,749.011,0.0141372,749.011,0.01324616,
746.001,-0.000326455,746.001,0.0233145,746.001,0.0227772,746.001,0.0888426,746.001,-0.000842134,746.001,0.306607,746.001,0.310375,746.001,0.0146041,746.001,0.0137933,
742.988,-0.00046156,742.988,0.0247205,742.988,0.0229793,742.988,0.0944284,742.988,-0.000557795,742.988,0.291741,742.988,0.30442,742.988,0.0155649,742.988,0.0144437,
740.008,-6.05727e-06,740.008,0.0263703,740.008,0.0236716,740.008,0.100377,740.008,-0.000415219,740.008,0.277225,740.008,0.297595,740.008,0.0168678,740.008,0.0157784,
736.988,-0.000123096,736.988,0.0278809,736.988,0.0237677,736.988,0.106735,736.988,-0.000568446,736.988,0.26271,736.988,0.288944,736.988,0.0171405,736.988,0.0161322,
734.001,0.000191106,734.001,0.0295947,734.001,0.0238725,734.001,0.113351,734.001,-0.000645789,734.001,0.249883,734.001,0.279769,734.001,0.0183953,734.001,0.0172195,
731.011,-3.59282e-05,731.011,0.0316138,731.011,0.0243557,731.011,0.12064,731.011,-0.000577029,731.011,0.236781,731.011,0.269764,731.011,0.0193347,731.011,0.0179278,
727.982,-5.85019e-06,727.982,0.0334266,727.982,0.0246391,727.982,0.128837,727.982,-0.00063302,727.982,0.224478,727.982,0.259563,727.982,0.0207172,727.982,0.018689,
724.986,8.03316e-05,724.986,0.035813,724.986,0.0249245,724.986,0.137252,724.986,-0.000409892,724.986,0.213133,724.986,0.249603,724.986,0.0217943,724.986,0.0201373,
721.987,0.000191184,721.987,0.0384101,721.987,0.0257483,721.987,0.146655,721.987,-0.000512395,721.987,0.202093,721.987,0.238967,721.987,0.0230107,721.987,0.0212671,
718.984,-8.62435e-05,718.984,0.0408951,718.984,0.0261498,718.984,0.155826,718.984,-0.00069562,718.984,0.19179,718.984,0.227848,718.984,0.0245382,718.984,0.0227089,
716.015,7.11664e-05,716.015,0.0439188,716.015,0.0268336,716.015,0.166015,716.015,-0.000709214,716.015,0.18291,716.015,0.218095,716.015,0.0261987,716.015,0.0242721,
713.006,-0.000168588,713.006,0.0471943,713.006,0.0270389,713.006,0.176744,713.006,-0.000827459,713.006,0.173549,713.006,0.207591,713.006,0.0275965,713.006,0.025423,
709.995,0.000126497,709.995,0.0510135,709.995,0.0284688,709.995,0.188729,709.995,-0.00048747,709.995,0.165503,709.995,0.197577,709.995,0.0296603,709.995,0.0274772,
707.016,-8.78481e-05,707.016,0.0547584,707.016,0.0289818,707.016,0.200672,707.016,-0.000269441,707.016,0.157881,707.016,0.188282,707.016,0.0313441,707.016,0.0294786,
703.998,-0.000271821,703.998,0.0591566,703.998,0.0296689,703.998,0.213619,703.998,-0.000323144,703.998,0.150183,703.998,0.178724,703.998,0.0334466,703.998,0.0307496,
701.014,8.18333e-05,701.014,0.0638526,701.014,0.0310267,701.014,0.227502,701.014,-8.22578e-05,701.014,0.143359,701.014,0.169913,701.014,0.0359073,701.014,0.0334144,
697.99,4.34388e-05,697.99,0.0691398,697.99,0.0323489,697.99,0.24093,697.99,-8.15331e-05,697.99,0.137495,697.99,0.161891,697.99,0.0386169,697.99,0.0353631,
695,-0.00012646,695,0.0746746,695,0.0330904,695,0.255668,695,-0.00041553,695,0.130781,695,0.153814,695,0.0409912,695,0.0377118,
692.007,8.57946e-05,692.007,0.0810157,692.007,0.0342683,692.007,0.271153,692.007,-0.000329196,692.007,0.125353,692.007,0.146134,692.007,0.0441601,692.007,0.0402776,
689.01,-0.000303071,689.01,0.088134,689.01,0.035862,689.01,0.28594,689.01,-0.000293137,689.01,0.119998,689.01,0.138872,689.01,0.0471298,689.01,0.0433201,
686.011,9.641e-05,686.011,0.0962544,686.011,0.0377491,686.011,0.302448,686.011,0.000157726,686.011,0.115424,686.011,0.132259,686.011,0.0509072,686.011,0.047438,
683.009,-6.6056e-05,683.009,0.1052,683.009,0.0395773,683.009,0.317543,683.009,-2.37109e-05,683.009,0.110348,683.009,0.126129,683.009,0.055082,683.009,0.0504439,
680.005,-4.975e-05,680.005,0.114442,680.005,0.0414841,680.005,0.332722,680.005,0.000289424,680.005,0.106099,680.005,0.120172,680.005,0.0585135,680.005,0.054298,
676.997,-4.19332e-05,676.997,0.125063,676.997,0.0439546,676.997,0.348684,676.997,0.000364446,676.997,0.101841,676.997,0.114329,676.997,0.0634442,676.997,0.058796,
673.987,0.000294346,673.987,0.136356,673.987,0.0470051,673.987,0.362527,673.987,0.000549,673.987,0.0981744,673.987,0.109111,673.987,0.0685274,673.987,0.0634779,
671.01,0.000293102,671.01,0.149585,671.01,0.0497619,671.01,0.376815,671.01,0.000900185,671.01,0.0945816,671.01,0.104336,671.01,0.0738929,671.01,0.0684762,
667.994,0.000221045,667.994,0.16337,667.994,0.0529211,667.994,0.388546,667.994,0.00100819,667.994,0.0910914,667.994,0.099388,667.994,0.0802743,667.994,0.0743809,
665.012,1.24253e-06,665.012,0.177412,665.012,0.0563428,665.012,0.398623,665.012,0.00109888,665.012,0.0869669,665.012,0.0947034,665.012,0.0860731,665.012,0.0805438,
661.991,1.70848e-06,661.991,0.193773,661.991,0.0602939,661.991,0.407076,661.991,0.000800147,661.991,0.0842237,661.991,0.0904507,661.991,0.0935158,661.991,0.0875593,
659.003,0.000131909,659.003,0.210159,659.003,0.0649919,659.003,0.412872,659.003,0.00145923,659.003,0.0816482,659.003,0.0868528,659.003,0.100884,659.003,0.0949029,
656.013,-5.38395e-05,656.013,0.227689,656.013,0.0702788,656.013,0.415867,656.013,0.0016205,656.013,0.0788476,656.013,0.0827221,656.013,0.109236,656.013,0.102698,
652.983,-5.5703e-05,652.983,0.246139,652.983,0.0759628,652.983,0.4153,652.983,0.00164742,652.983,0.0761385,652.983,0.0797309,652.983,0.118732,652.983,0.112137,
649.988,-0.000324903,649.988,0.264101,649.988,0.0822181,649.988,0.412572,649.988,0.00218225,649.988,0.0734503,649.988,0.0760523,649.988,0.128151,649.988,0.121274,
646.989,0.00033955,646.989,0.282257,646.989,0.0893369,646.989,0.407476,646.989,0.0025714,646.989,0.0718431,646.989,0.0736037,646.989,0.138669,646.989,0.132327,
643.988,0.000227908,643.988,0.299975,643.988,0.0971216,643.988,0.399004,643.988,0.0028029,643.988,0.0690544,643.988,0.070195,643.988,0.149853,643.988,0.143623,
640.985,-0.000126512,640.985,0.314754,640.985,0.105602,640.985,0.387546,640.985,0.00326163,640.985,0.0669551,640.985,0.0671966,640.985,0.162002,640.985,0.155956,
638.015,0.000121319,638.015,0.327695,638.015,0.115159,638.015,0.375504,638.015,0.00385287,638.015,0.0650983,638.015,0.0648224,638.015,0.174264,638.015,0.168485,
635.007,0.000105576,635.007,0.337668,635.007,0.125339,635.007,0.361346,635.007,0.00408174,635.007,0.0628623,635.007,0.0623666,635.007,0.18724,635.007,0.182084,
631.995,-0.000350355,631.995,0.343727,631.995,0.136558,631.995,0.34534,631.995,0.00503205,631.995,0.0613427,631.995,0.0597608,631.995,0.200848,631.995,0.196411,
628.982,-7.4804e-05,628.982,0.345863,628.982,0.149054,628.982,0.328934,628.982,0.00548779,628.982,0.0596035,628.982,0.0574107,628.982,0.214296,628.982,0.211518,
626.002,-0.000110208,626.002,0.344546,626.002,0.162258,626.002,0.312748,626.002,0.00630075,626.002,0.0581782,626.002,0.0559351,626.002,0.228986,626.002,0.226236,
622.983,0.000290641,622.983,0.337978,622.983,0.176604,622.983,0.295537,622.983,0.00728478,622.983,0.0568749,622.983,0.0537568,622.983,0.242649,622.983,0.242054,
619.999,7.70953e-05,619.999,0.328058,619.999,0.191442,619.999,0.278101,619.999,0.00773236,619.999,0.0550677,619.999,0.0516738,619.999,0.255658,619.999,0.257618,
617.012,0.000278415,617.012,0.315145,617.012,0.206387,617.012,0.261649,617.012,0.00893447,617.012,0.0539098,617.012,0.0501451,617.012,0.267986,617.012,0.272197,
613.986,-6.999e-05,613.986,0.299524,613.986,0.221747,613.986,0.245913,613.986,0.0102445,613.986,0.0525817,613.986,0.0484046,613.986,0.278501,613.986,0.285405,
610.994,-5.16653e-05,610.994,0.283343,610.994,0.236211,610.994,0.230783,610.994,0.0113277,610.994,0.0513846,610.994,0.0466988,610.994,0.287394,610.994,0.29672,
607.999,3.97886e-05,607.999,0.26609,607.999,0.24923,607.999,0.21685,607.999,0.0125673,607.999,0.0502695,607.999,0.045281,607.999,0.294349,607.999,0.306005,
605.003,-4.32792e-05,605.003,0.248706,605.003,0.260725,605.003,0.203781,605.003,0.01408,605.003,0.0491516,605.003,0.0440275,605.003,0.29863,605.003,0.312819,
602.004,8.00468e-05,602.004,0.230876,602.004,0.270098,602.004,0.191673,602.004,0.0157612,602.004,0.0484174,602.004,0.0431633,602.004,0.300597,602.004,0.316637,
599.002,-0.000284031,599.002,0.214052,599.002,0.276399,599.002,0.179795,599.002,0.0169886,599.002,0.0470504,599.002,0.0414737,599.002,0.299339,599.002,0.317542,
595.999,-0.000220027,595.999,0.19799,595.999,0.279395,595.999,0.169081,595.999,0.0186412,595.999,0.0465889,595.999,0.0406856,595.999,0.296029,595.999,0.315167,
592.992,-6.55383e-05,592.992,0.182612,592.992,0.278738,592.992,0.158824,592.992,0.0204399,592.992,0.0458231,592.992,0.039682,592.992,0.289116,592.992,0.30943,
589.984,-0.000140021,589.984,0.168822,589.984,0.274194,589.984,0.15012,589.984,0.0220496,589.984,0.0453244,589.984,0.0389433,589.984,0.280255,589.984,0.300818,
587.01,-0.000241915,587.01,0.155803,587.01,0.266072,587.01,0.141636,587.01,0.0234526,587.01,0.0450709,587.01,0.0383256,587.01,0.269706,587.01,0.290137,
583.997,-0.000169727,583.997,0.144233,583.997,0.255991,583.997,0.134318,583.997,0.0249153,583.997,0.0447052,583.997,0.0375381,583.997,0.258192,583.997,0.277475,
580.982,-2.86289e-05,580.982,0.133865,580.982,0.243886,580.982,0.127686,580.982,0.0259509,580.982,0.0445168,580.982,0.0376544,580.982,0.245463,580.982,0.26385,
578.001,2.26508e-05,578.001,0.124372,578.001,0.230083,578.001,0.121561,578.001,0.0268991,578.001,0.0451473,578.001,0.0376697,578.001,0.232175,578.001,0.249357,
575.018,0.000126704,575.018,0.116032,575.018,0.215863,575.018,0.11607,575.018,0.027307,575.018,0.0456447,575.018,0.0378648,575.018,0.218684,575.018,0.234246,
571.996,0.000157752,571.996,0.108166,571.996,0.201457,571.996,0.110725,571.996,0.0273708,571.996,0.0460504,571.996,0.0384437,571.996,0.204859,571.996,0.219005,
569.009,-9.13679e-05,569.009,0.100471,569.009,0.186487,569.009,0.105975,569.009,0.0269821,569.009,0.046875,569.009,0.0387989,569.009,0.191375,569.009,0.203203,
565.983,0.000108528,565.983,0.0944141,565.983,0.1732,565.983,0.101696,565.983,0.0264274,565.983,0.0482262,565.983,0.0397065,565.983,0.178538,565.983,0.189267,
562.991,0.000134239,562.991,0.088737,562.991,0.160342,562.991,0.0978509,562.991,0.0254755,562.991,0.0494555,562.991,0.0408577,562.991,0.166329,562.991,0.175661,
559.997,-0.000222718,559.997,0.0830544,559.997,0.14851,559.997,0.0938437,559.997,0.0239334,559.997,0.0500979,559.997,0.0413366,559.997,0.154702,559.997,0.162683,
557.001,0.000181835,557.001,0.0789101,557.001,0.138165,557.001,0.0908673,557.001,0.0230214,557.001,0.0517193,557.001,0.0426059,557.001,0.144677,557.001,0.151344,
554.003,0.000166427,554.003,0.074637,554.003,0.128307,554.003,0.0878389,554.003,0.0216486,554.003,0.0528909,554.003,0.0438904,554.003,0.134799,554.003,0.140409,
551.003,-2.89913e-05,551.003,0.0709496,551.003,0.119586,551.003,0.0849596,551.003,0.0199681,551.003,0.0538843,551.003,0.0446999,551.003,0.125694,551.003,0.130427,
548.001,-7.47005e-05,548.001,0.0671972,548.001,0.111265,548.001,0.0821226,548.001,0.0184857,548.001,0.054813,548.001,0.0456508,548.001,0.117185,548.001,0.121189,
544.997,-4.25027e-05,544.997,0.0640257,544.997,0.104163,544.997,0.0796821,544.997,0.017047,544.997,0.0560045,544.997,0.0466652,544.997,0.109994,544.997,0.11293,
541.99,3.40414e-05,541.99,0.0613191,541.99,0.0976382,541.99,0.0772629,541.99,0.0157747,541.99,0.0568519,541.99,0.0474878,541.99,0.10314,541.99,0.105873,
538.982,2.54984e-05,538.982,0.0585408,538.982,0.0916654,538.982,0.0749421,538.982,0.0143801,538.982,0.0577546,538.982,0.0482614,538.982,0.0968725,538.982,0.099121,
536.009,-2.71276e-05,536.009,0.0562792,536.009,0.0864207,536.009,0.0727525,536.009,0.0131872,536.009,0.0584296,536.009,0.0489647,536.009,0.0913926,536.009,0.0932481,
532.996,-7.97732e-05,532.996,0.0541068,532.996,0.0816467,532.996,0.0706912,532.996,0.0120304,532.996,0.0589869,532.996,0.0495685,532.996,0.0864365,532.996,0.0879686,
529.981,3.83388e-05,529.981,0.0520743,529.981,0.07731,529.981,0.0687752,529.981,0.0110808,529.981,0.0595496,529.981,0.0500015,529.981,0.0820196,529.981,0.0831173,
527.002,2.13823e-05,527.002,0.0504863,527.002,0.0735783,527.002,0.0668849,527.002,0.0100895,527.002,0.0598471,527.002,0.0505131,527.002,0.0779153,527.002,0.0790201,
523.984,2.72588e-05,523.984,0.048857,523.984,0.0701599,523.984,0.0651076,523.984,0.00939954,523.984,0.0601614,523.984,0.0509303,523.984,0.0743357,523.984,0.0751539,
521,3.2048e-05,521,0.0475843,521,0.067217,521,0.0634489,521,0.00877215,521,0.060538,521,0.0514323,521,0.0711589,521,0.0719453,
518.015,-7.0927e-06,518.015,0.04644,518.015,0.0645102,518.015,0.0617547,518.015,0.00794345,518.015,0.0607883,518.015,0.0516303,518.015,0.0682505,518.015,0.0687831,
514.991,-9.00221e-05,514.991,0.0453026,514.991,0.0619482,514.991,0.05994571,514.991,0.00726317,514.991,0.0607779,514.991,0.0516343,514.991,0.065199,514.991,0.0657876,
512.002,-5.32701e-05,512.002,0.0446981,512.002,0.0601828,512.002,0.0584897,512.002,0.00668404,512.002,0.0609922,512.002,0.0519861,512.002,0.0628402,512.002,0.0633001,
509.011,-9.437e-05,509.011,0.0439508,509.011,0.0584836,509.011,0.0569671,509.011,0.0061679,509.011,0.0608983,509.011,0.0519784,509.011,0.0604673,509.011,0.0607805,
506.018,4.30764e-05,506.018,0.0436034,506.018,0.0570443,506.018,0.0557048,506.018,0.00586619,506.018,0.0608978,506.018,0.0522721,506.018,0.0584258,506.018,0.0587603,
502.986,-6.77642e-05,502.986,0.0434979,502.986,0.0563036,502.986,0.0544196,502.986,0.00545864,502.986,0.0610511,502.986,0.0524454,502.986,0.0564812,502.986,0.0567472,
499.989,-1.43406e-05,499.989,0.0434694,499.989,0.0555868,499.989,0.053168,499.989,0.00533845,499.989,0.0609916,499.989,0.0522845,499.989,0.0545386,499.989,0.0547841,
496.991,3.75622e-05,496.991,0.0438158,496.991,0.0552055,496.991,0.0520169,496.991,0.00517453,496.991,0.0610801,496.991,0.0524227,496.991,0.0527773,496.991,0.0530461,
493.991,-7.93074e-05,493.991,0.0440306,493.991,0.0549859,493.991,0.0508097,493.991,0.00481896,493.991,0.0608277,493.991,0.0522219,493.991,0.0510135,493.991,0.0512023,
490.988,-7.89968e-05,490.988,0.0446682,490.988,0.0552391,490.988,0.049701,490.988,0.00473463,490.988,0.0607862,490.988,0.052268,490.988,0.0492598,490.988,0.0496136,
487.984,2.19777e-05,487.984,0.0453923,487.984,0.0556543,487.984,0.0486873,487.984,0.0048871,487.984,0.0606736,487.984,0.0522384,487.984,0.0476936,487.984,0.048108,
485.017,1.29173e-05,485.017,0.0462207,485.017,0.0563263,485.017,0.0477818,485.017,0.0047502,485.017,0.0606067,485.017,0.0521849,485.017,0.0462324,485.017,0.0466767,
482.009,8.51991e-05,482.009,0.0471378,482.009,0.0570871,482.009,0.0468776,482.009,0.00482608,482.009,0.0606278,482.009,0.0522164,482.009,0.0448707,482.009,0.045358,
479,5.74707e-05,479,0.0480389,479,0.057854,479,0.0459081,479,0.00471142,479,0.0605378,479,0.0520736,479,0.0435697,479,0.044004,
475.988,-2.85772e-05,475.988,0.0488589,475.988,0.058576,475.988,0.0451174,475.988,0.00470974,475.988,0.0602727,475.988,0.0519718,475.988,0.042283,475.988,0.0428612,
473.014,-0.000122837,473.014,0.0496692,473.014,0.0594529,473.014,0.0443387,473.014,0.00481697,473.014,0.060092,473.014,0.0518616,473.014,0.040998,473.014,0.0415262,
469.999,0.000118911,469.999,0.0505879,469.999,0.0604833,469.999,0.0435219,469.999,0.00483194,469.999,0.060058,469.999,0.0518205,469.999,0.0400341,469.999,0.0405167,
466.982,1.825e-05,466.982,0.0513084,466.982,0.0610939,466.982,0.0428405,466.982,0.00485526,466.982,0.0598258,466.982,0.0517156,466.982,0.0388483,466.982,0.0395433,
464.002,-0.000121492,464.002,0.0518868,464.002,0.0617255,464.002,0.0420754,464.002,0.00486304,464.002,0.0596347,464.002,0.0515558,464.002,0.0378434,464.002,0.0384314,
460.982,-2.03977e-05,460.982,0.0525933,460.982,0.0625553,460.982,0.0414068,460.982,0.00511156,460.982,0.059502,460.982,0.0513949,460.982,0.0367937,460.982,0.0375618,
457.999,-1.92587e-05,457.999,0.0532832,457.999,0.0633895,457.999,0.0408898,457.999,0.00514669,457.999,0.059304,457.999,0.0514391,457.999,0.0359786,457.999,0.0367164,
455.014,2.18224e-05,455.014,0.0538752,455.014,0.0641911,455.014,0.0404364,455.014,0.00536177,455.014,0.0592567,455.014,0.0513973,455.014,0.0352171,455.014,0.035984,
451.988,3.17115e-05,451.988,0.0543569,451.988,0.0647083,451.988,0.0396235,451.988,0.00524168,451.988,0.05913,451.988,0.0512078,451.988,0.0343453,451.988,0.035108,
449,5.58655e-05,449,0.0549712,449,0.0654478,449,0.0392338,449,0.00534977,449,0.05911991,449,0.0513087,449,0.0335307,449,0.0345114,
446.01,-0.000145455,446.01,0.0552794,446.01,0.0658129,446.01,0.0384501,446.01,0.00527362,446.01,0.0587481,446.01,0.0510222,446.01,0.0326779,446.01,0.0336393,
443.018,4.56652e-05,443.018,0.0557675,443.018,0.0665713,443.018,0.0381807,443.018,0.00546417,443.018,0.0588566,443.018,0.051118,443.018,0.0321935,443.018,0.0331205,
439.986,2.37381e-05,439.986,0.0560337,439.986,0.0670267,439.986,0.0375956,439.986,0.00551262,439.986,0.0587863,439.986,0.0510609,439.986,0.0314476,439.986,0.0323754,
436.991,5.69492e-07,436.991,0.0564105,436.991,0.0674525,436.991,0.037083,436.991,0.00562802,436.991,0.0587391,436.991,0.0510122,436.991,0.0308019,436.991,0.031838,
433.995,-4.25544e-05,433.995,0.0567576,433.995,0.0679302,433.995,0.0366416,433.995,0.00558771,433.995,0.0585899,433.995,0.0509118,433.995,0.0301438,433.995,0.0312063,
430.996,3.31612e-05,430.996,0.0569772,430.996,0.0683577,430.996,0.0360669,430.996,0.00565353,430.996,0.0585923,430.996,0.0509237,430.996,0.0296191,430.996,0.0306407,
427.996,-2.23131e-05,427.996,0.0570769,427.996,0.0685906,427.996,0.0355144,427.996,0.00566255,427.996,0.0584241,427.996,0.0508278,427.996,0.0289197,427.996,0.0299477,
424.995,7.7658e-07,424.995,0.0573491,424.995,0.0689931,424.995,0.0351097,424.995,0.00584423,424.995,0.0584562,424.995,0.0508243,424.995,0.028319,424.995,0.0293716,
421.992,4.83577e-05,421.992,0.0575209,421.992,0.0692665,421.992,0.0346436,421.992,0.00578612,421.992,0.0584716,421.992,0.0508512,421.992,0.0277155,421.992,0.0288853,
418.988,1.4807e-05,418.988,0.0577435,418.988,0.0695098,418.988,0.0340862,418.988,0.0058917,418.988,0.0585654,418.988,0.0508631,418.988,0.0272342,418.988,0.0282819,
415.982,9.50025e-06,415.982,0.0578404,415.982,0.0697499,415.982,0.0338295,415.982,0.00589807,415.982,0.0584167,415.982,0.0508842,415.982,0.0266356,415.982,0.0277411,
413.013,0.000117564,413.013,0.0580238,413.013,0.0701768,413.013,0.0332571,413.013,0.00601073,413.013,0.0585224,413.013,0.0509757,413.013,0.0261581,413.013,0.0272104,
410.004,-7.23194e-05,410.004,0.05806,410.004,0.0702123,410.004,0.0326183,410.004,0.00594245,410.004,0.0585928,410.004,0.0508522,410.004,0.0254562,410.004,0.0265435,
406.993,5.53218e-05,406.993,0.0583278,406.993,0.0704225,406.993,0.0321889,406.993,0.00602643,406.993,0.0587656,406.993,0.0510138,406.993,0.0248338,406.993,0.0261138,
403.981,0.000120386,403.981,0.0584325,403.981,0.0705584,403.981,0.0317196,403.981,0.00614154,403.981,0.0588522,403.981,0.0512455,403.981,0.0244236,403.981,0.0255737,
401.006,0.000103634,401.006,0.0583027,401.006,0.0706905,401.006,0.0311601,401.006,0.00621727,401.006,0.0588561,401.006,0.0511323,401.006,0.0238415,401.006,0.0249758,
397.991,7.07003e-05,397.991,0.0583262,397.991,0.0707726,397.991,0.0305653,397.991,0.00613038,397.991,0.0590264,397.991,0.051326,397.991,0.0231478,397.991,0.0243677,
395.014,5.32248e-05,395.014,0.0583219,395.014,0.0707242,395.014,0.0300547,395.014,0.00620952,395.014,0.0592098,395.014,0.0513749,395.014,0.0226364,395.014,0.0237566,
391.996,9.65557e-06,391.996,0.0582814,391.996,0.070761,391.996,0.0294732,391.996,0.00628174,391.996,0.0594313,391.996,0.0516537,391.996,0.0220944,391.996,0.0233483,
389.015,7.08298e-05,389.015,0.0583493,389.015,0.0707628,389.015,0.0290477,389.015,0.00630745,389.015,0.0596984,389.015,0.0519504,389.015,0.0217943,389.015,0.0229852,
385.995,-0.000117455,385.995,0.0583437,385.995,0.0706405,385.995,0.0283421,385.995,0.00620668,385.995,0.0598242,385.995,0.0518544,385.995,0.0210362,385.995,0.0221054,
383.011,5.45452e-05,383.011,0.058184,383.011,0.0704758,383.011,0.027848,383.011,0.00632029,383.011,0.0599239,383.011,0.0521226,383.011,0.0205518,383.011,0.0216724,
379.988,-5.2183e-05,379.988,0.0582337,379.988,0.070478,379.988,0.0273496,379.988,0.00635641,379.988,0.0603304,379.988,0.0523925,379.988,0.0200424,379.988,0.021132,
377.002,1.03544e-06,377.002,0.0580087,377.002,0.0702773,377.002,0.0267856,377.002,0.00628946,377.002,0.0604929,377.002,0.0526726,377.002,0.019614,377.002,0.0207102,
374.014,4.4086e-05,374.014,0.0579024,374.014,0.0699556,374.014,0.026366,374.014,0.00640979,374.014,0.0608173,374.014,0.0529479,374.014,0.0192101,374.014,0.0202449,
370.987,0.000121888,370.987,0.0581661,370.987,0.0700808,370.987,0.0260809,370.987,0.00650206,370.987,0.0613577,370.987,0.0533601,370.987,0.0190093,370.987,0.0200702,
367.997,-1.8068e-05,367.997,0.0577437,367.997,0.0697243,367.997,0.0253137,367.997,0.00615349,367.997,0.0613726,367.997,0.0535718,367.997,0.0184309,367.997,0.019566,
365.005,6.77489e-05,365.005,0.0576257,365.005,0.0696149,365.005,0.0247602,365.005,0.00629537,365.005,0.0616824,365.005,0.0537458,365.005,0.0181605,365.005,0.0192391,
362.013,4.7348e-05,362.013,0.0577354,362.013,0.0695514,362.013,0.0242494,362.013,0.00642387,362.013,0.0619424,362.013,0.0541087,362.013,0.0181771,362.013,0.0190684,
359.019,-6.37266e-05,359.019,0.0575096,359.019,0.0693279,359.019,0.0235135,359.019,0.00639773,359.019,0.0621158,359.019,0.0541737,359.019,0.0178688,359.019,0.0187867,
355.984,2.9977e-05,355.984,0.0576992,355.984,0.0694494,355.984,0.0227232,355.984,0.00628694,355.984,0.0624417,355.984,0.0543623,355.984,0.0177203,355.984,0.018625,
352.988,2.09423e-05,352.988,0.0579422,352.988,0.0696073,352.988,0.0219391,352.988,0.00631494,352.988,0.0628437,352.988,0.0545752,352.988,0.017425,352.988,0.0183236,
349.99,4.09535e-05,349.99,0.0583256,349.99,0.0700903,349.99,0.0208454,349.99,0.00664892,349.99,0.0628628,349.99,0.0546836,349.99,0.0170502,349.99,0.0179915,
346.991,-2.89395e-05,346.991,0.0586252,346.991,0.0706328,346.991,0.0189143,346.991,0.00656261,346.991,0.0627963,346.991,0.0547278,346.991,0.0157958,346.991,0.0167326,
343.991,-4.82488e-05,343.991,0.0591802,343.991,0.0714379,343.991,0.0168498,343.991,0.00684332,343.991,0.0627397,343.991,0.0549374,343.991,0.014515,343.991,0.0151956,
340.989,7.4325e-05,340.989,0.0596414,340.989,0.072007,340.989,0.014855,340.989,0.0069149,340.989,0.0628666,340.989,0.0551572,340.989,0.0127783,340.989,0.0134247,
337.986,-0.000172263,337.986,0.0599005,337.986,0.0722153,337.986,0.012258,337.986,0.00689394,337.986,0.0625606,337.986,0.0551555,337.986,0.0109498,337.986,0.0114989,
334.982,1.23219e-05,334.982,0.0607871,334.982,0.0736104,334.982,0.010624,334.982,0.00743667,334.982,0.0630786,334.982,0.055523,334.982,0.00953878,334.982,0.0103071,
332.016,-5.28071e-06,332.016,0.0607569,332.016,0.0742414,332.016,0.00912785,332.016,0.00762167,332.016,0.0629442,332.016,0.0559721,332.016,0.00842082,332.016,0.00913956,
329.01,-0.00025573,329.01,0.0609548,329.01,0.0753946,329.01,0.0081277,329.01,0.00778235,329.01,0.0632251,329.01,0.0566019,329.01,0.00719489,329.01,0.00815391,
326.002,0.000245054,326.002,0.0612341,326.002,0.0769022,326.002,0.00785918,326.002,0.00842916,326.002,0.0625974,326.002,0.0573491,326.002,0.00760847,326.002,0.00845469,
322.994,-0.000318177,322.994,0.0614133,322.994,0.0789384,322.994,0.00797,322.994,0.00918773,322.994,0.0642626,322.994,0.0580043,322.994,0.00790054,322.994,0.00815209,
319.984,-0.000546885,319.984,0.0625268,319.984,0.0814167,319.984,0.0109359,319.984,0.0103785,319.984,0.0645194,319.984,0.0609592,319.984,0.00719192,319.984,0.00948472,
317.012,-0.00109468,317.012,0.0603962,317.012,0.0813856,317.012,0.0107702,317.012,0.00664937,317.012,0.0650506,317.012,0.0606819,317.012,0.012577,317.012,0.00875891,
314,-0.00257258,314,0.0645306,314,0.0879918,314,0.0140476,314,0.0124686,314,0.0692918,314,0.0643484,314,0.00918792,314,0.0138646,
310.987,-0.00167562,310.987,0.0612827,310.987,0.0981927,310.987,0.0193039,310.987,0.0115538,310.987,0.0638342,310.987,0.0642922,310.987,0.0113829,310.987,0.0106876,
308.012,0.00193056,308.012,0.0604439,308.012,0.106905,308.012,0.0202528,308.012,0.018293,308.012,0.0628931,308.012,0.0701002,308.012,0.0151953,308.012,0.0156079,
304.996,0.00700981,304.996,0.0705379,304.996,0.121388,304.996,0.036075,304.996,0.0170476,304.996,0.0725018,304.996,0.0928924,304.996,0.0198072,304.996,0.0281083,
302.019,0.00349486,302.019,0.0779304,302.019,0.137373,302.019,0.0390962,302.019,0.0197061,302.019,0.0649722,302.019,0.0902281,302.019,0.0316863,302.019,0.0177241,
299.981,-0.0352066,299.981,0.0568433,299.981,0.0960811,299.981,0.0124492,299.981,-0.00517461,299.981,0.0649232,299.981,0.0903853,299.981,0.0123368,299.981,0.0337685,

Reference_SiO2,
Reference_SiO2
Collection Time: 9/27/2023 2:11:10 PM
Operator Name  :
Scan Version 5.0.0.999
Parameter List :
Instrument  Cary 60
Instrument Version  2.00
Start (nm)  1100.0
Stop (nm)  300.0
X Mode  Nanometers
Y Mode  Abs
UV-Vis Scan Rate (nm/min)  600.00
UV-Vis Data Interval (nm)  1.00
UV-Vis Ave. Time (sec)  0.1000
Beam Mode  Dual Beam
Baseline Correction  On
Baseline Type  Baseline correction
Baseline File Name
Baseline Std Ref File Name
Cycle Mode  Off
Method Log     :
Method Name    :
Date/Time stamp: 9/27/2023 12:31:01 PM
Method Modifications:
UVVIS SAT Changed: 9/27/2023 2:08:55 PM, Old:0.0125, New:0.1000
Common SAT Changed: 9/27/2023 2:08:55 PM, Old:0.0125, New:0.1000
X Start nm Changed: 9/27/2023 2:09:07 PM, Old:  800.0, New: 1100.0
X Stop nm Changed: 9/27/2023 2:09:07 PM, Old:  200.0, New:  300.0
Y Max Abs Changed: 9/27/2023 2:09:07 PM, Old:     1.00, New:     1.05
Common Interval nm Changed: 9/27/2023 2:09:07 PM, Old:     5.00, New:     1.00
Baseline Correction Changed: 9/27/2023 2:09:17 PM, Old:0, New:1
End Method Modifications
<Current Wavelength> , 306.0

Sample_A,
Sample_A
Collection Time: 9/27/2023 2:19:16 PM
Operator Name  :
Scan Version 5.0.0.999
Parameter List :
Instrument  Cary 60
Instrument Version  2.00
Start (nm)  1100.0
Stop (nm)  300.0
X Mode  Nanometers
Y Mode  Abs
UV-Vis Scan Rate (nm/min)  600.00
UV-Vis Data Interval (nm)  1.00
UV-Vis Ave. Time (sec)  0.1000
Beam Mode  Dual Beam
Baseline Correction  On
Baseline Type  Baseline correction
Baseline File Name
Baseline Std Ref File Name
Cycle Mode  Off
Method Log     :
Method Name    :
Date/Time stamp: 9/27/2023 12:31:01 PM
Method Modifications:
UVVIS SAT Changed: 9/27/2023 2:08:55 PM, Old:0.0125, New:0.1000
Common SAT Changed: 9/27/2023 2:08:55 PM, Old:0.0125, New:0.1000
X Start nm Changed: 9/27/2023 2:09:07 PM, Old:  800.0, New: 1100.0
X Stop nm Changed: 9/27/2023 2:09:07 PM, Old:  200.0, New:  300.0
Y Max Abs Changed: 9/27/2023 2:09:07 PM, Old:     1.00, New:     1.05
Common Interval nm Changed: 9/27/2023 2:09:07 PM, Old:     5.00, New:     1.00
Baseline Correction Changed: 9/27/2023 2:09:17 PM, Old:0, New:1
End Method Modifications
<Current Wavelength> , 301.0

Sample_B,
Sample_B
Collection Time: 9/27/2023 2:23:34 PM
Operator Name  :
Scan Version 5.0.0.999
Parameter List :
Instrument  Cary 60
Instrument Version  2.00
Start (nm)  1100.0
Stop (nm)  300.0
X Mode  Nanometers
Y Mode  Abs
UV-Vis Scan Rate (nm/min)  600.00
UV-Vis Data Interval (nm)  1.00
UV-Vis Ave. Time (sec)  0.1000
Beam Mode  Dual Beam
Baseline Correction  On
Baseline Type  Baseline correction
Baseline File Name
Baseline Std Ref File Name
Cycle Mode  Off
Method Log     :
Method Name    :
Date/Time stamp: 9/27/2023 12:31:01 PM
Method Modifications:
UVVIS SAT Changed: 9/27/2023 2:08:55 PM, Old:0.0125, New:0.1000
Common SAT Changed: 9/27/2023 2:08:55 PM, Old:0.0125, New:0.1000
X Start nm Changed: 9/27/2023 2:09:07 PM, Old:  800.0, New: 1100.0
X Stop nm Changed: 9/27/2023 2:09:07 PM, Old:  200.0, New:  300.0
Y Max Abs Changed: 9/27/2023 2:09:07 PM, Old:     1.00, New:     1.05
Common Interval nm Changed: 9/27/2023 2:09:07 PM, Old:     5.00, New:     1.00
Baseline Correction Changed: 9/27/2023 2:09:17 PM, Old:0, New:1
End Method Modifications
<Current Wavelength> , 304.0

Sample_C,
Sample_C
Collection Time: 9/27/2023 2:26:49 PM
Operator Name  :
Scan Version 5.0.0.999
Parameter List :
Instrument  Cary 60
Instrument Version  2.00
Start (nm)  1100.0
Stop (nm)  300.0
X Mode  Nanometers
Y Mode  Abs
UV-Vis Scan Rate (nm/min)  600.00
UV-Vis Data Interval (nm)  1.00
UV-Vis Ave. Time (sec)  0.1000
Beam Mode  Dual Beam
Baseline Correction  On
Baseline Type  Baseline correction
Baseline File Name
Baseline Std Ref File Name
Cycle Mode  Off
Method Log     :
Method Name    :
Date/Time stamp: 9/27/2023 12:31:01 PM
Method Modifications:
UVVIS SAT Changed: 9/27/2023 2:08:55 PM, Old:0.0125, New:0.1000
Common SAT Changed: 9/27/2023 2:08:55 PM, Old:0.0125, New:0.1000
X Start nm Changed: 9/27/2023 2:09:07 PM, Old:  800.0, New: 1100.0
X Stop nm Changed: 9/27/2023 2:09:07 PM, Old:  200.0, New:  300.0
Y Max Abs Changed: 9/27/2023 2:09:07 PM, Old:     1.00, New:     1.05
Common Interval nm Changed: 9/27/2023 2:09:07 PM, Old:     5.00, New:     1.00
Baseline Correction Changed: 9/27/2023 2:09:17 PM, Old:0, New:1
End Method Modifications
<Current Wavelength> , 306.0

Sample_D,
Sample_D
Collection Time: 9/27/2023 2:29:37 PM
Operator Name  :
Scan Version 5.0.0.999
Parameter List :
Instrument  Cary 60
Instrument Version  2.00
Start (nm)  1100.0
Stop (nm)  300.0
X Mode  Nanometers
Y Mode  Abs
UV-Vis Scan Rate (nm/min)  600.00
UV-Vis Data Interval (nm)  1.00
UV-Vis Ave. Time (sec)  0.1000
Beam Mode  Dual Beam
Baseline Correction  On
Baseline Type  Baseline correction
Baseline File Name
Baseline Std Ref File Name
Cycle Mode  Off
Method Log     :
Method Name    :
Date/Time stamp: 9/27/2023 12:31:01 PM
Method Modifications:
UVVIS SAT Changed: 9/27/2023 2:08:55 PM, Old:0.0125, New:0.1000
Common SAT Changed: 9/27/2023 2:08:55 PM, Old:0.0125, New:0.1000
X Start nm Changed: 9/27/2023 2:09:07 PM, Old:  800.0, New: 1100.0
X Stop nm Changed: 9/27/2023 2:09:07 PM, Old:  200.0, New:  300.0
Y Max Abs Changed: 9/27/2023 2:09:07 PM, Old:     1.00, New:     1.05
Common Interval nm Changed: 9/27/2023 2:09:07 PM, Old:     5.00, New:     1.00
Baseline Correction Changed: 9/27/2023 2:09:17 PM, Old:0, New:1
End Method Modifications
<Current Wavelength> , 308.0

Sample_E,
Sample_E
Collection Time: 9/27/2023 2:34:03 PM
Operator Name  :
Scan Version 5.0.0.999
Parameter List :
Instrument  Cary 60
Instrument Version  2.00
Start (nm)  1100.0
Stop (nm)  300.0
X Mode  Nanometers
Y Mode  Abs
UV-Vis Scan Rate (nm/min)  600.00
UV-Vis Data Interval (nm)  1.00
UV-Vis Ave. Time (sec)  0.1000
Beam Mode  Dual Beam
Baseline Correction  On
Baseline Type  Baseline correction
Baseline File Name
Baseline Std Ref File Name
Cycle Mode  Off
Method Log     :
Method Name    :
Date/Time stamp: 9/27/2023 12:31:01 PM
Method Modifications:
UVVIS SAT Changed: 9/27/2023 2:08:55 PM, Old:0.0125, New:0.1000
Common SAT Changed: 9/27/2023 2:08:55 PM, Old:0.0125, New:0.1000
X Start nm Changed: 9/27/2023 2:09:07 PM, Old:  800.0, New: 1100.0
X Stop nm Changed: 9/27/2023 2:09:07 PM, Old:  200.0, New:  300.0
Y Max Abs Changed: 9/27/2023 2:09:07 PM, Old:     1.00, New:     1.05
Common Interval nm Changed: 9/27/2023 2:09:07 PM, Old:     5.00, New:     1.00
Baseline Correction Changed: 9/27/2023 2:09:17 PM, Old:0, New:1
End Method Modifications
<Current Wavelength> , 303.0

Sample_F,
Sample_F
Collection Time: 9/27/2023 2:37:26 PM
Operator Name  :
Scan Version 5.0.0.999
Parameter List :
Instrument  Cary 60
Instrument Version  2.00
Start (nm)  1100.0
Stop (nm)  300.0
X Mode  Nanometers
Y Mode  Abs
UV-Vis Scan Rate (nm/min)  600.00
UV-Vis Data Interval (nm)  1.00
UV-Vis Ave. Time (sec)  0.1000
Beam Mode  Dual Beam
Baseline Correction  On
Baseline Type  Baseline correction
Baseline File Name
Baseline Std Ref File Name
Cycle Mode  Off
Method Log     :
Method Name    :
Date/Time stamp: 9/27/2023 12:31:01 PM
Method Modifications:
UVVIS SAT Changed: 9/27/2023 2:08:55 PM, Old:0.0125, New:0.1000
Common SAT Changed: 9/27/2023 2:08:55 PM, Old:0.0125, New:0.1000
X Start nm Changed: 9/27/2023 2:09:07 PM, Old:  800.0, New: 1100.0
X Stop nm Changed: 9/27/2023 2:09:07 PM, Old:  200.0, New:  300.0
Y Max Abs Changed: 9/27/2023 2:09:07 PM, Old:     1.00, New:     1.05
Common Interval nm Changed: 9/27/2023 2:09:07 PM, Old:     5.00, New:     1.00
Baseline Correction Changed: 9/27/2023 2:09:17 PM, Old:0, New:1
End Method Modifications
<Current Wavelength> , 303.0

Sample_G,
Sample_G
Collection Time: 9/27/2023 2:42:30 PM
Operator Name  :
Scan Version 5.0.0.999
Parameter List :
Instrument  Cary 60
Instrument Version  2.00
Start (nm)  1100.0
Stop (nm)  300.0
X Mode  Nanometers
Y Mode  Abs
UV-Vis Scan Rate (nm/min)  600.00
UV-Vis Data Interval (nm)  1.00
UV-Vis Ave. Time (sec)  0.1000
Beam Mode  Dual Beam
Baseline Correction  On
Baseline Type  Baseline correction
Baseline File Name
Baseline Std Ref File Name
Cycle Mode  Off
Method Log     :
Method Name    :
Date/Time stamp: 9/27/2023 12:31:01 PM
Method Modifications:
UVVIS SAT Changed: 9/27/2023 2:08:55 PM, Old:0.0125, New:0.1000
Common SAT Changed: 9/27/2023 2:08:55 PM, Old:0.0125, New:0.1000
X Start nm Changed: 9/27/2023 2:09:07 PM, Old:  800.0, New: 1100.0
X Stop nm Changed: 9/27/2023 2:09:07 PM, Old:  200.0, New:  300.0
Y Max Abs Changed: 9/27/2023 2:09:07 PM, Old:     1.00, New:     1.05
Common Interval nm Changed: 9/27/2023 2:09:07 PM, Old:     5.00, New:     1.00
Baseline Correction Changed: 9/27/2023 2:09:17 PM, Old:0, New:1
End Method Modifications
<Current Wavelength> , 300.0

Sample_G_flipped,
Sample_G_flipped
Collection Time: 9/27/2023 2:45:16 PM
Operator Name  :
Scan Version 5.0.0.999
Parameter List :
Instrument  Cary 60
Instrument Version  2.00
Start (nm)  1100.0
Stop (nm)  300.0
X Mode  Nanometers
Y Mode  Abs
UV-Vis Scan Rate (nm/min)  600.00
UV-Vis Data Interval (nm)  1.00
UV-Vis Ave. Time (sec)  0.1000
Beam Mode  Dual Beam
Baseline Correction  On
Baseline Type  Baseline correction
Baseline File Name
Baseline Std Ref File Name
Cycle Mode  Off
Method Log     :
Method Name    :
Date/Time stamp: 9/27/2023 12:31:01 PM
Method Modifications:
UVVIS SAT Changed: 9/27/2023 2:08:55 PM, Old:0.0125, New:0.1000
Common SAT Changed: 9/27/2023 2:08:55 PM, Old:0.0125, New:0.1000
X Start nm Changed: 9/27/2023 2:09:07 PM, Old:  800.0, New: 1100.0
X Stop nm Changed: 9/27/2023 2:09:07 PM, Old:  200.0, New:  300.0
Y Max Abs Changed: 9/27/2023 2:09:07 PM, Old:     1.00, New:     1.05
Common Interval nm Changed: 9/27/2023 2:09:07 PM, Old:     5.00, New:     1.00
Baseline Correction Changed: 9/27/2023 2:09:17 PM, Old:0, New:1
End Method Modifications
<Current Wavelength> , 303.0